File: Battery Recycling/6.27.2024/Air_Background_FTIR.tsv
X	Y
400.163	2.21539
402.574	2.79945
404.985	3.17005
407.395	3.47071
409.806	3.73298
412.217	4.07727
414.627	4.31466
417.038	3.8825
419.448	3.66849
421.859	4.70006
424.27	5.30514
426.68	5.90658
429.091	6.3021
431.502	6.62042
433.912	6.90509
436.323	7.09433
438.733	7.62485
441.144	7.66312
443.555	7.8325
445.965	8.32133
448.376	8.74143
450.787	9.02123
453.197	9.10911
455.608	8.9852
458.018	8.65111
460.429	9.66348
462.84	10.2037
465.25	10.5453
467.661	10.585
470.072	10.6658
472.482	10.4371
474.893	11.3374
477.303	11.9764
479.714	12.3113
482.125	12.4033
484.535	12.5407
486.946	13.1701
489.356	13.6097
491.767	13.78
494.178	14.309
496.588	14.8229
498.999	15.0878
501.41	14.8928
503.82	15.4764
506.231	15.9407
508.641	16.4704
511.052	17.0498
513.463	17.4099
515.873	17.2674
518.284	17.3642
520.695	18.3207
523.105	18.9579
525.516	18.7361
527.926	19.5719
530.337	20.2833
532.748	20.5749
535.158	20.8048
537.569	21.0435
539.98	21.3368
542.39	21.5347
544.801	21.5087
547.211	21.6655
549.622	21.9577
552.033	22.3141
554.443	22.5807
556.854	22.8136
559.265	23.0833
561.675	23.3073
564.086	23.4904
566.496	23.5746
568.907	23.6886
571.318	24.1019
573.728	24.3057
576.139	24.2035
578.55	24.6409
580.96	24.8103
583.371	25.1476
585.781	25.3824
588.192	25.5588
590.603	25.5291
593.013	25.8162
595.424	26.3558
597.835	26.6231
600.245	26.7873
602.656	27.1897
605.066	27.5119
607.477	27.7774
609.888	28.0415
612.298	28.3642
614.709	28.389
617.12	28.1299
619.53	28.833
621.941	29.3823
624.351	29.4869
626.762	29.7325
629.173	30.034
631.583	30.1153
633.994	29.9921
636.405	29.9913
638.815	30.0821
641.226	30.0208
643.636	29.8943
646.047	29.6017
648.458	29.0858
650.868	29.209
653.279	29.4071
655.689	29.5746
658.1	29.9454
660.511	30.5399
662.921	31.4568
665.332	28.9545
667.743	19.0644
670.153	25.0635
672.564	30.8819
674.974	30.9277
677.385	30.737
679.796	30.8136
682.206	31.2017
684.617	31.6236
687.028	32.1308
689.438	32.7266
691.849	33.5427
694.259	34.3214
696.67	34.9452
699.081	35.5646
701.491	36.1668
703.902	36.4758
706.313	36.8317
708.723	37.2154
711.134	37.4297
713.544	37.6378
715.955	37.7565
718.366	37.319
720.776	37.1252
723.187	38.0133
725.598	38.292
728.008	38.3985
730.419	38.4492
732.829	38.5924
735.24	38.6973
737.651	38.7697
740.061	38.8661
742.472	38.9762
744.883	39.1783
747.293	39.4122
749.704	39.5571
752.114	39.7559
754.525	39.9306
756.936	40.0987
759.346	40.2905
761.757	40.3866
764.168	40.504
766.578	40.644
768.989	40.7369
771.399	40.9008
773.81	41.0169
776.221	41.0787
778.631	41.2
781.042	41.2475
783.453	41.2674
785.863	41.2994
788.274	41.2585
790.684	41.2338
793.095	41.1706
795.506	41.0891
797.916	41.0928
800.327	41.1021
802.738	41.1729
805.148	41.3215
807.559	41.4565
809.969	41.6665
812.38	41.8392
814.791	41.9682
817.201	42.1299
819.612	42.2166
822.022	42.3386
824.433	42.4942
826.844	42.5927
829.254	42.726
831.665	42.8043
834.076	42.8593
836.486	42.9911
838.897	43.0379
841.307	43.1083
843.718	43.2124
846.129	43.2747
848.539	43.4105
850.95	43.5252
853.361	43.6382
855.771	43.8323
858.182	43.9708
860.592	44.1378
863.003	44.3286
865.414	44.476
867.824	44.6846
870.235	44.877
872.646	45.0811
875.056	45.3296
877.467	45.52
879.877	45.7453
882.288	45.992
884.699	46.1758
887.109	46.4035
889.52	46.6059
891.931	46.7944
894.341	47.0325
896.752	47.2211
899.162	47.4448
901.573	47.6954
903.984	47.8976
906.394	48.1599
908.805	48.4038
911.216	48.6407
913.626	48.9382
916.037	49.189
918.447	49.4729
920.858	49.8032
923.269	50.0968
925.679	50.4501
928.09	50.7782
930.501	51.089
932.911	51.4541
935.322	51.7514
937.732	52.0769
940.143	52.4335
942.554	52.711
944.964	53.0274
947.375	53.3058
949.786	53.5616
952.196	53.8539
954.607	54.0647
957.017	54.285
959.428	54.5074
961.839	54.6663
964.249	54.8728
966.66	55.0389
969.07	55.169
971.481	55.3255
973.892	55.4505
976.302	55.6121
978.713	55.7601
981.124	55.8403
983.534	55.9735
985.945	56.087
988.355	56.1765
990.766	56.3082
993.177	56.3823
995.587	56.4732
997.998	56.5606
1000.41	56.5638
1002.82	56.5818
1005.23	56.5244
1007.64	56.4012
1010.05	56.2814
1012.46	56.0733
1014.87	55.8763
1017.28	55.7014
1019.69	55.4873
1022.1	55.3488
1024.51	55.207
1026.93	55.0619
1029.34	54.9626
1031.75	54.7951
1034.16	54.6396
1036.57	54.4853
1038.98	54.258
1041.39	54.0823
1043.8	53.887
1046.21	53.681
1048.62	53.5517
1051.03	53.3859
1053.44	53.2747
1055.85	53.192
1058.26	53.0555
1060.67	52.9887
1063.08	52.8973
1065.5	52.7715
1067.91	52.7131
1070.32	52.6082
1072.73	52.5138
1075.14	52.491
1077.55	52.6069
1079.96	52.8466
1082.37	53.0212
1084.78	53.1711
1087.19	53.3813
1089.6	53.541
1092.01	53.7655
1094.42	54.0459
1096.83	54.3057
1099.24	54.6669
1101.65	55.0336
1104.07	55.3995
1106.48	55.8251
1108.89	56.2207
1111.3	56.6481
1113.71	57.1078
1116.12	57.5169
1118.53	57.9937
1120.94	58.4387
1123.35	58.8873
1125.76	59.3761
1128.17	59.7751
1130.58	60.1966
1132.99	60.6279
1135.4	60.9508
1137.81	61.3132
1140.22	61.5219
1142.64	61.7863
1145.05	62.3426
1147.46	62.7876
1149.87	63.1643
1152.28	63.531
1154.69	63.8339
1157.1	64.1796
1159.51	64.4744
1161.92	64.7383
1164.33	65.0415
1166.74	65.3027
1169.15	65.6052
1171.56	65.8704
1173.97	65.9901
1176.38	66.253
1178.79	66.2982
1181.21	66.4966
1183.62	67.146
1186.03	67.4911
1188.44	67.8281
1190.85	68.1788
1193.26	68.3854
1195.67	68.6453
1198.08	68.8829
1200.49	69.1689
1202.9	69.4739
1205.31	69.6813
1207.72	69.9185
1210.13	70.0994
1212.54	70.2297
1214.95	70.5876
1217.36	70.802
1219.78	71.0118
1222.19	71.2891
1224.6	71.386
1227.01	71.6732
1229.42	71.9655
1231.83	72.1654
1234.24	72.4721
1236.65	72.6998
1239.06	72.8784
1241.47	73.0804
1243.88	73.1127
1246.29	73.3433
1248.7	73.522
1251.11	73.5236
1253.52	73.4961
1255.93	73.2764
1258.35	72.7357
1260.76	72.4663
1263.17	72.9189
1265.58	73.3389
1267.99	73.6869
1270.4	73.7477
1272.81	74.3434
1275.22	75.0199
1277.63	75.2246
1280.04	75.3924
1282.45	75.5434
1284.86	75.5701
1287.27	75.3349
1289.68	75.5461
1292.09	75.9725
1294.5	76.0475
1296.92	75.9655
1299.33	76.1882
1301.74	76.2319
1304.15	76.2304
1306.56	76.1246
1308.97	76.0546
1311.38	75.5351
1313.79	75.017
1316.2	74.8851
1318.61	74.2359
1321.02	75.5072
1323.43	76.527
1325.84	76.7445
1328.25	76.6512
1330.66	76.7036
1333.07	76.6448
1335.49	74.8325
1337.9	71.0654
1340.31	70.8657
1342.72	75.43
1345.13	76.4299
1347.54	75.9379
1349.95	75.7077
1352.36	75.6705
1354.77	74.846
1357.18	74.9288
1359.59	72.2349
1362	67.0138
1364.41	70.4414
1366.82	73.409
1369.23	73.0501
1371.64	71.9177
1374.06	67.5729
1376.47	71.598
1378.88	73.6717
1381.29	74.2415
1383.7	73.3923
1386.11	68.1666
1388.52	69.6123
1390.93	74.3876
1393.34	67.8282
1395.75	65.0471
1398.16	66.2754
1400.57	71.0996
1402.98	73.2661
1405.39	71.4248
1407.8	75.4768
1410.21	75.447
1412.63	75.6362
1415.04	73.5145
1417.45	62.2494
1419.86	60.4431
1422.27	70.5339
1424.68	71.8296
1427.09	74.5036
1429.5	70.5361
1431.91	72.798
1434.32	68.6911
1436.73	59.6603
1439.14	72.5464
1441.55	77.5071
1443.96	77.1417
1446.37	72.3853
1448.78	71.29
1451.2	74.6853
1453.61	69.2729
1456.02	49.8713
1458.43	53.3423
1460.84	72.3361
1463.25	70.0622
1465.66	68.1334
1468.07	75.9691
1470.48	65.8469
1472.89	55.2699
1475.3	63.4024
1477.71	72.83
1480.12	76.7505
1482.53	77.4055
1484.94	75.0494
1487.35	64.9146
1489.77	59.9758
1492.18	71.0627
1494.59	69.3712
1497	60.8577
1499.41	67.3678
1501.82	74.1601
1504.23	59.2596
1506.64	39.5185
1509.05	54.1319
1511.46	66.0857
1513.87	67.0811
1516.28	58.166
1518.69	56.0686
1521.1	48.2366
1523.51	56.1471
1525.92	60.2994
1528.34	66.8799
1530.75	68.5249
1533.16	58.4635
1535.57	64.9333
1537.98	50.3109
1540.39	37.1934
1542.8	47.5139
1545.21	58.7112
1547.62	67.7009
1550.03	65.5179
1552.44	64.3739
1554.85	56.9088
1557.26	40.5076
1559.67	36.263
1562.08	62.9133
1564.49	68.7654
1566.91	67.7213
1569.32	59.7695
1571.73	69.0685
1574.14	64.3722
1576.55	56.2665
1578.96	71.1522
1581.37	75.5466
1583.78	76.0558
1586.19	76.4195
1588.6	76.1064
1591.01	76.0107
1593.42	75.2082
1595.83	75.3957
1598.24	77.0292
1600.65	76.3551
1603.06	75.8951
1605.48	76.2723
1607.89	74.5456
1610.3	75.5615
1612.71	76.5849
1615.12	64.1814
1617.53	61.7316
1619.94	73.7126
1622.35	66.1601
1624.76	67.833
1627.17	70.3836
1629.58	74.3875
1631.99	74.5487
1634.4	55.8901
1636.81	55.9768
1639.22	72.3975
1641.63	76.4085
1644.04	67.4003
1646.46	52.9352
1648.87	61.9766
1651.28	50.5192
1653.69	40.1076
1656.1	67.4764
1658.51	77.5919
1660.92	71.3918
1663.33	68.4059
1665.74	75.0876
1668.15	62.7114
1670.56	60.5114
1672.97	65.9817
1675.38	61.5273
1677.79	71.9273
1680.2	69.3487
1682.61	52.6491
1685.03	49.4923
1687.44	68.1635
1689.85	72.1088
1692.26	74.3931
1694.67	57.9476
1697.08	53.0559
1699.49	45.3735
1701.9	56.0201
1704.31	64.0934
1706.72	66.6415
1709.13	74.1434
1711.54	74.0873
1713.95	64.0159
1716.36	52.1618
1718.77	57.5803
1721.18	74.1882
1723.6	76.0178
1726.01	77.8688
1728.42	73.6905
1730.83	66.502
1733.24	52.2811
1735.65	61.1175
1738.06	68.6137
1740.47	66.2197
1742.88	69.6767
1745.29	70.0552
1747.7	64.7583
1750.11	61.0896
1752.52	69.5153
1754.93	74.3561
1757.34	72.2387
1759.75	72.5462
1762.17	69.7627
1764.58	77.1118
1766.99	72.2694
1769.4	66.8901
1771.81	58.9871
1774.22	67.5994
1776.63	76.0113
1779.04	75.0083
1781.45	74.4342
1783.86	75.217
1786.27	76.848
1788.68	76.3043
1791.09	65.5136
1793.5	67.1731
1795.91	74.9852
1798.32	73.4226
1800.74	71.0523
1803.15	75.7803
1805.56	78.6157
1807.97	76.9978
1810.38	74.53
1812.79	77.2155
1815.2	79.132
1817.61	78.6704
1820.02	79.1597
1822.43	76.8942
1824.84	71.6117
1827.25	72.196
1829.66	68.0021
1832.07	75.181
1834.48	78.3456
1836.89	77.5259
1839.31	78.2818
1841.72	73.3376
1844.13	65.2242
1846.54	72.6041
1848.95	77.0816
1851.36	78.9025
1853.77	78.9363
1856.18	78.7126
1858.59	78.2789
1861	78.2458
1863.41	78.0882
1865.82	73.8324
1868.23	67.2717
1870.64	72.5683
1873.05	78.1362
1875.46	78.4626
1877.88	78.2647
1880.29	78.2238
1882.7	77.9374
1885.11	77.5607
1887.52	75.3994
1889.93	73.4125
1892.34	76.6316
1894.75	75.852
1897.16	77.0262
1899.57	77.7939
1901.98	77.5471
1904.39	77.3161
1906.8	76.3497
1909.21	75.0197
1911.62	76.4786
1914.03	77.0887
1916.45	73.1494
1918.86	72.3907
1921.27	74.1364
1923.68	74.0647
1926.09	76.7724
1928.5	77.0876
1930.91	76.8928
1933.32	76.7519
1935.73	76.8274
1938.14	76.6755
1940.55	74.1242
1942.96	72.1412
1945.37	74.9335
1947.78	75.9113
1950.19	76.1483
1952.6	76.1878
1955.02	75.6212
1957.43	74.2081
1959.84	74.214
1962.25	75.6841
1964.66	75.1129
1967.07	73.7555
1969.48	75.3021
1971.89	75.9256
1974.3	75.8273
1976.71	75.7816
1979.12	75.7209
1981.53	75.6617
1983.94	75.6022
1986.35	75.0893
1988.76	74.2853
1991.17	72.7105
1993.59	73.765
1996	75.1627
1998.41	75.0338
2000.82	75.0109
2003.23	75.0296
2005.64	74.8763
2008.05	74.7012
2010.46	74.7384
2012.87	74.6269
2015.28	73.6852
2017.69	73.1659
2020.1	74.0558
2022.51	74.2755
2024.92	74.1566
2027.33	73.6997
2029.74	73.6453
2032.16	73.9779
2034.57	73.9812
2036.98	73.8892
2039.39	73.5115
2041.8	73.2304
2044.21	73.4947
2046.62	73.5527
2049.03	73.5237
2051.44	73.4297
2053.85	73.3587
2056.26	73.27
2058.67	73.1136
2061.08	72.9895
2063.49	72.507
2065.9	72.39
2068.31	72.8092
2070.73	72.7625
2073.14	72.6474
2075.55	72.5561
2077.96	72.461
2080.37	72.441
2082.78	72.3743
2085.19	72.2788
2087.6	72.094
2090.01	71.8848
2092.42	72.0155
2094.83	71.995
2097.24	71.9108
2099.65	71.8479
2102.06	71.7705
2104.47	71.6979
2106.88	71.6154
2109.3	71.5359
2111.71	71.4497
2114.12	71.2948
2116.53	71.2484
2118.94	71.2304
2121.35	71.1394
2123.76	71.0521
2126.17	70.9911
2128.58	70.9016
2130.99	70.8369
2133.4	70.7394
2135.81	70.5856
2138.22	70.5562
2140.63	70.5188
2143.04	70.461
2145.45	70.375
2147.87	70.2916
2150.28	70.2284
2152.69	70.1455
2155.1	70.062
2157.51	69.9964
2159.92	69.8945
2162.33	69.8044
2164.74	69.7558
2167.15	69.6695
2169.56	69.5945
2171.97	69.5109
2174.38	69.4249
2176.79	69.355
2179.2	69.2612
2181.61	69.1758
2184.02	69.0987
2186.44	68.9982
2188.85	68.9294
2191.26	68.8483
2193.67	68.7558
2196.08	68.6831
2198.49	68.5901
2200.9	68.5101
2203.31	68.4318
2205.72	68.3376
2208.13	68.2746
2210.54	68.1943
2212.95	68.1136
2215.36	68.0547
2217.77	67.9768
2220.18	67.9128
2222.59	67.8485
2225.01	67.7483
2227.42	67.6493
2229.83	67.5355
2232.24	67.4168
2234.65	67.3087
2237.06	67.1813
2239.47	67.0613
2241.88	66.9293
2244.29	66.7695
2246.7	66.6114
2249.11	66.4213
2251.52	66.2047
2253.93	65.9732
2256.34	65.7123
2258.75	65.4549
2261.16	65.1931
2263.58	64.9318
2265.99	64.7168
2268.4	64.5438
2270.81	64.4213
2273.22	64.3657
2275.63	64.3676
2278.04	64.4861
2280.45	64.7057
2282.86	64.7708
2285.27	64.2002
2287.68	63.2197
2290.09	62.1815
2292.5	61.0906
2294.91	59.9126
2297.32	58.6475
2299.73	57.1972
2302.15	55.5749
2304.56	53.4996
2306.97	50.8058
2309.38	47.9495
2311.79	45.2395
2314.2	43.1163
2316.61	40.5724
2319.02	36.8466
2321.43	33.6211
2323.84	31.8123
2326.25	30.5003
2328.66	28.4185
2331.07	27.0036
2333.48	26.8329
2335.89	26.2505
2338.3	25.4904
2340.72	25.0574
2343.13	25.5193
2345.54	29.0173
2347.95	35.7758
2350.36	33.1185
2352.77	25.6063
2355.18	21.032
2357.59	18.732
2360	17.9596
2362.41	18.4072
2364.82	19.8372
2367.23	22.3021
2369.64	25.8303
2372.05	30.3529
2374.46	35.803
2376.87	42.0175
2379.29	48.5712
2381.7	54.5595
2384.11	58.7905
2386.52	60.9645
2388.93	61.7685
2391.34	61.9272
2393.75	61.8954
2396.16	61.8322
2398.57	61.7406
2400.98	61.6658
2403.39	61.5835
2405.8	61.4889
2408.21	61.4127
2410.62	61.3184
2413.03	61.2278
2415.44	61.145
2417.86	61.0437
2420.27	60.9558
2422.68	60.8603
2425.09	60.7598
2427.5	60.6848
2429.91	60.5962
2432.32	60.5116
2434.73	60.4321
2437.14	60.3345
2439.55	60.2512
2441.96	60.1621
2444.37	60.0677
2446.78	59.987
2449.19	59.8946
2451.6	59.8086
2454.01	59.7286
2456.42	59.6352
2458.84	59.5571
2461.25	59.475
2463.66	59.3855
2466.07	59.3094
2468.48	59.2154
2470.89	59.1288
2473.3	59.0474
2475.71	58.9535
2478.12	58.8698
2480.53	58.7791
2482.94	58.6831
2485.35	58.5995
2487.76	58.5033
2490.17	58.412
2492.58	58.3251
2494.99	58.229
2497.41	58.1473
2499.82	58.0577
2502.23	57.9647
2504.64	57.8866
2507.05	57.7971
2509.46	57.7123
2511.87	57.6306
2514.28	57.539
2516.69	57.4566
2519.1	57.3685
2521.51	57.2809
2523.92	57.2021
2526.33	57.1086
2528.74	57.0217
2531.15	56.9386
2533.56	56.8445
2535.98	56.7604
2538.39	56.6684
2540.8	56.5733
2543.21	56.4876
2545.62	56.3916
2548.03	56.3031
2550.44	56.2167
2552.85	56.1166
2555.26	56.0289
2557.67	55.9393
2560.08	55.8457
2562.49	55.7608
2564.9	55.6668
2567.31	55.5783
2569.72	55.4942
2572.13	55.4008
2574.55	55.3174
2576.96	55.2304
2579.37	55.1402
2581.78	55.0606
2584.19	54.9694
2586.6	54.8805
2589.01	54.7964
2591.42	54.7014
2593.83	54.6189
2596.24	54.5295
2598.65	54.4332
2601.06	54.3495
2603.47	54.2555
2605.88	54.1607
2608.29	54.0721
2610.7	53.9766
2613.12	53.8883
2615.53	53.7957
2617.94	53.7011
2620.35	53.6148
2622.76	53.5183
2625.17	53.429
2627.58	53.3426
2629.99	53.2509
2632.4	53.1643
2634.81	53.0742
2637.22	52.9813
2639.63	52.9001
2642.04	52.81
2644.45	52.7219
2646.86	52.6394
2649.27	52.5442
2651.69	52.4599
2654.1	52.3714
2656.51	52.2776
2658.92	52.1919
2661.33	52.0958
2663.74	52.0044
2666.15	51.9159
2668.56	51.8196
2670.97	51.7285
2673.38	51.6324
2675.79	51.5329
2678.2	51.4439
2680.61	51.3473
2683.02	51.2558
2685.43	51.1673
2687.84	51.0699
2690.26	50.9832
2692.67	50.8893
2695.08	50.7965
2697.49	50.7119
2699.9	50.6183
2702.31	50.5284
2704.72	50.445
2707.13	50.3547
2709.54	50.2688
2711.95	50.1819
2714.36	50.0888
2716.77	50.002
2719.18	49.9055
2721.59	49.8122
2724	49.7251
2726.41	49.63
2728.83	49.5483
2731.24	49.4559
2733.65	49.3584
2736.06	49.2687
2738.47	49.1742
2740.88	49.085
2743.29	48.9942
2745.7	48.8955
2748.11	48.8076
2750.52	48.7165
2752.93	48.6243
2755.34	48.5391
2757.75	48.4446
2760.16	48.3557
2762.57	48.2672
2764.98	48.1718
2767.4	48.0861
2769.81	47.9948
2772.22	47.8989
2774.63	47.8103
2777.04	47.7177
2779.45	47.623
2781.86	47.5266
2784.27	47.4257
2786.68	47.3283
2789.09	47.223
2791.5	47.1214
2793.91	47.0291
2796.32	46.9225
2798.73	46.824
2801.14	46.7302
2803.55	46.6281
2805.97	46.5354
2808.38	46.4345
2810.79	46.3332
2813.2	46.2446
2815.61	46.1517
2818.02	46.0581
2820.43	45.9638
2822.84	45.8622
2825.25	45.7681
2827.66	45.6698
2830.07	45.5652
2832.48	45.4617
2834.89	45.3442
2837.3	45.2164
2839.71	45.0754
2842.12	44.913
2844.54	44.7287
2846.95	44.5137
2849.36	44.297
2851.77	44.1206
2854.18	43.9911
2856.59	43.9169
2859	43.8789
2861.41	43.8461
2863.82	43.8081
2866.23	43.7456
2868.64	43.6631
2871.05	43.5747
2873.46	43.4918
2875.87	43.4376
2878.28	43.3869
2880.69	43.3242
2883.11	43.2534
2885.52	43.1647
2887.93	43.0609
2890.34	42.9482
2892.75	42.8193
2895.16	42.6898
2897.57	42.5668
2899.98	42.4328
2902.39	42.2962
2904.8	42.1534
2907.21	42.0056
2909.62	41.847
2912.03	41.6608
2914.44	41.4565
2916.85	41.2369
2919.26	41.023
2921.68	40.8354
2924.09	40.6864
2926.5	40.5854
2928.91	40.5445
2931.32	40.5314
2933.73	40.5363
2936.14	40.5696
2938.55	40.6044
2940.96	40.6295
2943.37	40.6132
2945.78	40.5575
2948.19	40.4793
2950.6	40.3683
2953.01	40.2131
2955.42	40.0688
2957.83	39.9448
2960.25	39.8556
2962.66	39.8061
2965.07	39.7915
2967.48	39.8324
2969.89	39.8962
2972.3	39.9085
2974.71	39.9208
2977.12	39.9282
2979.53	39.9061
2981.94	39.8991
2984.35	39.8643
2986.76	39.7769
2989.17	39.729
2991.58	39.6616
2993.99	39.5677
2996.4	39.5494
2998.82	39.5075
3001.23	39.416
3003.64	39.2721
3006.05	39.2339
3008.46	39.1225
3010.87	38.8956
3013.28	38.8032
3015.69	38.7843
3018.1	38.7968
3020.51	38.7574
3022.92	38.6486
3025.33	38.5482
3027.74	38.4649
3030.15	38.1704
3032.56	38.075
3034.97	38.1386
3037.39	38.1744
3039.8	38.112
3042.21	38.0247
3044.62	37.9366
3047.03	37.7668
3049.44	37.6645
3051.85	37.6699
3054.26	37.4844
3056.67	37.3224
3059.08	37.3538
3061.49	37.2613
3063.9	37.0153
3066.31	36.9193
3068.72	37.012
3071.13	37.0129
3073.54	36.9231
3075.96	36.7681
3078.37	36.553
3080.78	36.4697
3083.19	36.4985
3085.6	36.454
3088.01	36.3887
3090.42	36.3222
3092.83	36.1557
3095.24	35.9232
3097.65	35.8935
3100.06	35.7248
3102.47	35.704
3104.88	35.7552
3107.29	35.6575
3109.7	35.5662
3112.11	35.4503
3114.53	35.2497
3116.94	35.1332
3119.35	35.1024
3121.76	34.9904
3124.17	34.9755
3126.58	34.9422
3128.99	34.9473
3131.4	34.7543
3133.81	34.6715
3136.22	34.7291
3138.63	34.6476
3141.04	34.556
3143.45	34.4742
3145.86	34.4069
3148.27	34.3245
3150.68	34.2236
3153.1	34.145
3155.51	34.0741
3157.92	33.9896
3160.33	33.9109
3162.74	33.8217
3165.15	33.7291
3167.56	33.637
3169.97	33.555
3172.38	33.4858
3174.79	33.3674
3177.2	33.1346
3179.61	33.1404
3182.02	33.1258
3184.43	32.9722
3186.84	32.9507
3189.25	32.9053
3191.67	32.8222
3194.08	32.6963
3196.49	32.4757
3198.9	32.4422
3201.31	32.4711
3203.72	32.4084
3206.13	32.3092
3208.54	32.1134
3210.95	32.0342
3213.36	31.8977
3215.77	31.874
3218.18	31.7637
3220.59	31.6969
3223	31.7298
3225.41	31.6335
3227.82	31.4927
3230.23	31.4171
3232.65	31.3541
3235.06	31.2867
3237.47	31.2195
3239.88	31.1574
3242.29	31.0275
3244.7	30.8324
3247.11	30.9097
3249.52	30.9037
3251.93	30.7494
3254.34	30.5819
3256.75	30.5684
3259.16	30.5302
3261.57	30.474
3263.98	30.3955
3266.39	30.3369
3268.8	30.2647
3271.22	30.0885
3273.63	29.8805
3276.04	29.8465
3278.45	29.883
3280.86	29.8372
3283.27	29.7658
3285.68	29.7138
3288.09	29.5914
3290.5	29.4519
3292.91	29.388
3295.32	29.3765
3297.73	29.2994
3300.14	29.2722
3302.55	29.2043
3304.96	29.1129
3307.37	28.9136
3309.79	28.8235
3312.2	28.7972
3314.61	28.7932
3317.02	28.7573
3319.43	28.6911
3321.84	28.594
3324.25	28.4691
3326.66	28.3923
3329.07	28.3734
3331.48	28.3093
3333.89	28.1448
3336.3	28.0051
3338.71	28.0312
3341.12	28.0023
3343.53	27.9444
3345.94	27.8786
3348.36	27.7995
3350.77	27.7121
3353.18	27.6017
3355.59	27.4699
3358	27.4215
3360.41	27.3059
3362.82	27.1951
3365.23	27.0648
3367.64	27.0622
3370.05	27.1043
3372.46	27.0735
3374.87	26.9994
3377.28	26.9156
3379.69	26.8402
3382.1	26.712
3384.51	26.5601
3386.93	26.5967
3389.34	26.5252
3391.75	26.2486
3394.16	26.2461
3396.57	26.1712
3398.98	26.187
3401.39	26.1396
3403.8	26.0859
3406.21	26.0631
3408.62	25.9898
3411.03	25.9156
3413.44	25.8381
3415.85	25.765
3418.26	25.4671
3420.67	25.1789
3423.08	25.3885
3425.5	25.4662
3427.91	25.3608
3430.32	25.2532
3432.73	25.2174
3435.14	25.1759
3437.55	25.0968
3439.96	24.9213
3442.37	24.6838
3444.78	24.408
3447.19	24.1109
3449.6	24.6557
3452.01	24.7532
3454.42	24.6523
3456.83	24.5617
3459.24	24.3993
3461.65	24.1946
3464.07	24.2462
3466.48	24.177
3468.89	24.2063
3471.3	24.1745
3473.71	24.0071
3476.12	24.0122
3478.53	23.8495
3480.94	23.3815
3483.35	23.552
3485.76	23.6066
3488.17	23.4928
3490.58	23.679
3492.99	23.595
3495.4	23.3212
3497.81	23.3632
3500.22	23.0049
3502.64	22.3457
3505.05	22.8393
3507.46	22.8494
3509.87	22.5994
3512.28	23.0283
3514.69	23.1632
3517.1	23.0055
3519.51	22.7858
3521.92	22.0984
3524.33	21.7735
3526.74	21.6492
3529.15	21.9065
3531.56	22.5185
3533.97	22.4939
3536.38	22.1977
3538.79	22.5023
3541.21	22.2313
3543.62	21.0893
3546.03	20.5497
3548.44	21.4531
3550.85	21.2912
3553.26	21.355
3555.67	21.9533
3558.08	21.6705
3560.49	21.1945
3562.9	20.4378
3565.31	18.0336
3567.72	17.8455
3570.13	20.6628
3572.54	21.3891
3574.95	21.1387
3577.36	21.0342
3579.78	20.9385
3582.19	20.7934
3584.6	19.0939
3587.01	16.887
3589.42	18.7103
3591.83	19.6221
3594.24	18.6867
3596.65	19.0318
3599.06	19.0661
3601.47	19.373
3603.88	19.813
3606.29	18.0693
3608.7	17.078
3611.11	17.4821
3613.52	17.3607
3615.93	17.5165
3618.35	16.0147
3620.76	17.4744
3623.17	19.2074
3625.58	17.5485
3627.99	13.5337
3630.4	15.7062
3632.81	18.1834
3635.22	19.0111
3637.63	19.4403
3640.04	19.4765
3642.45	19.2406
3644.86	17.3246
3647.27	13.3137
3649.68	12.7318
3652.09	16.7145
3654.5	17.3552
3656.92	17.3154
3659.33	19.2764
3661.74	19.564
3664.15	19.4714
3666.56	17.7174
3668.97	14.1615
3671.38	14.884
3673.79	13.3189
3676.2	13.1121
3678.61	16.591
3681.02	18.1733
3683.43	18.4874
3685.84	16.5329
3688.25	13.3614
3690.66	14.3633
3693.07	17.0181
3695.49	17.8056
3697.9	17.6939
3700.31	16.195
3702.72	16.3758
3705.13	17.3849
3707.54	15.7968
3709.95	13.3516
3712.36	13.9207
3714.77	16.8611
3717.18	16.9764
3719.59	15.9311
3722	14.9414
3724.41	14.7032
3726.82	15.0678
3729.23	15.3587
3731.64	12.8975
3734.06	11.3392
3736.47	12.1201
3738.88	14.6892
3741.29	14.0988
3743.7	10.4998
3746.11	12.2142
3748.52	11.5468
3750.93	10.814
3753.34	13.6795
3755.75	15.2921
3758.16	14.5845
3760.57	15.4394
3762.98	16.2788
3765.39	15.3151
3767.8	14.9913
3770.21	14.8842
3772.63	16.6756
3775.04	16.9068
3777.45	15.6112
3779.86	15.1654
3782.27	16.1458
3784.68	15.8815
3787.09	16.4464
3789.5	16.6767
3791.91	16.5506
3794.32	15.3128
3796.73	14.2863
3799.14	13.218
3801.55	11.8708
3803.96	13.9562
3806.37	13.1116
3808.78	15.0163
3811.2	16.0185
3813.61	14.1376
3816.02	12.3063
3818.43	12.6725
3820.84	11.1679
3823.25	13.6991
3825.66	14.2366
3828.07	14.5421
3830.48	13.8018
3832.89	13.1792
3835.3	12.0592
3837.71	10.9328
3840.12	12.0293
3842.53	13.1182
3844.94	14.3418
3847.35	14.8489
3849.77	12.6982
3852.18	8.71752
3854.59	9.79289
3857	13.4153
3859.41	14.0366
3861.82	12.7959
3864.23	12.0839
3866.64	12.7169
3869.05	11.2065
3871.46	12.1486
3873.87	12.7131
3876.28	14.0041
3878.69	12.7746
3881.1	12.4049
3883.51	12.4623
3885.92	12.1406
3888.34	13.4322
3890.75	12.2986
3893.16	13.3094
3895.57	13.8554
3897.98	12.1675
3900.39	11.0944
3902.8	10.9082
3905.21	12.1205
3907.62	13.8437
3910.03	14.1896
3912.44	14.0627
3914.85	13.2308
3917.26	12.5518
3919.67	12.9674
3922.08	13.1732
3924.49	12.8732
3926.91	13.346
3929.32	12.9643
3931.73	12.5563
3934.14	13.2126
3936.55	13.5635
3938.96	13.4249
3941.37	12.7965
3943.78	12.8648
3946.19	12.9497
3948.6	12.6679
3951.01	12.961
3953.42	13.1802
3955.83	13.1451
3958.24	13.0924
3960.65	12.9542
3963.06	12.9985
3965.48	13.0812
3967.89	12.9697
3970.3	12.8788
3972.71	12.7932
3975.12	12.7679
3977.53	12.8275
3979.94	12.7918
3982.35	12.7341
3984.76	12.7314
3987.17	12.689
3989.58	12.5739
3991.99	12.5449
3994.4	12.4971
3996.81	12.5132
3999.22	12.4947
4000.19	12.4724