File: Battery Recycling/6.27.2024/ChClUrea_Absorbance_FTIR.tsv
X	Y
400.163	0.655599
402.574	0.665184
404.985	0.671445
407.395	0.674089
409.806	0.678999
412.217	0.686153
414.627	0.692435
417.038	0.699866
419.448	0.71065
421.859	0.716595
424.27	0.727577
426.68	0.733247
429.091	0.737184
431.502	0.746427
433.912	0.756807
436.323	0.763106
438.733	0.769003
441.144	0.780415
443.555	0.792156
445.965	0.803356
448.376	0.818097
450.787	0.82759
453.197	0.837237
455.608	0.844421
458.018	0.853313
460.429	0.860747
462.84	0.864983
465.25	0.873888
467.661	0.880489
470.072	0.886951
472.482	0.89069
474.893	0.897101
477.303	0.904277
479.714	0.912433
482.125	0.918623
484.535	0.923451
486.946	0.936359
489.356	0.950254
491.767	0.957074
494.178	0.971384
496.588	0.982241
498.999	0.992083
501.41	1.00738
503.82	1.02776
506.231	1.04525
508.641	1.06567
511.052	1.09092
513.463	1.11912
515.873	1.14121
518.284	1.16726
520.695	1.19481
523.105	1.21745
525.516	1.24197
527.926	1.25732
530.337	1.26824
532.748	1.27598
535.158	1.26981
537.569	1.26288
539.98	1.25189
542.39	1.2332
544.801	1.21987
547.211	1.20391
549.622	1.19191
552.033	1.18151
554.443	1.17423
556.854	1.17446
559.265	1.17583
561.675	1.18207
564.086	1.19851
566.496	1.21849
568.907	1.251
571.318	1.29173
573.728	1.33205
576.139	1.37379
578.55	1.40682
580.96	1.42835
583.371	1.44175
585.781	1.4294
588.192	1.41168
590.603	1.38515
593.013	1.34996
595.424	1.32113
597.835	1.29257
600.245	1.26439
602.656	1.24188
605.066	1.21827
607.477	1.19986
609.888	1.18821
612.298	1.17993
614.709	1.17876
617.12	1.17243
619.53	1.15932
621.941	1.1476
624.351	1.13457
626.762	1.11928
629.173	1.10418
631.583	1.08688
633.994	1.07222
636.405	1.05768
638.815	1.04433
641.226	1.03252
643.636	1.0192
646.047	1.00678
648.458	0.995415
650.868	0.980777
653.279	0.967419
655.689	0.955139
658.1	0.941539
660.511	0.928291
662.921	0.913767
665.332	0.900611
667.743	0.887047
670.153	0.871298
672.564	0.858803
674.974	0.845531
677.385	0.831998
679.796	0.819405
682.206	0.806524
684.617	0.793882
687.028	0.782161
689.438	0.76986
691.849	0.758114
694.259	0.746817
696.67	0.735558
699.081	0.724822
701.491	0.714342
703.902	0.704094
706.313	0.695165
708.723	0.686987
711.134	0.679012
713.544	0.670451
715.955	0.659172
718.366	0.646771
720.776	0.634403
723.187	0.622871
725.598	0.611913
728.008	0.601123
730.419	0.590751
732.829	0.580733
735.24	0.570603
737.651	0.560811
740.061	0.550396
742.472	0.539145
744.883	0.527998
747.293	0.516282
749.704	0.504549
752.114	0.493263
754.525	0.481577
756.936	0.469968
759.346	0.4593
761.757	0.449317
764.168	0.44111
766.578	0.435756
768.989	0.435375
771.399	0.444384
773.81	0.467469
776.221	0.509383
778.631	0.567406
781.042	0.625068
783.453	0.660846
785.863	0.666122
788.274	0.649511
790.684	0.622434
793.095	0.59149
795.506	0.560319
797.916	0.530661
800.327	0.50325
802.738	0.479341
805.148	0.458521
807.559	0.440396
809.969	0.425004
812.38	0.411644
814.791	0.400081
817.201	0.388962
819.612	0.377311
822.022	0.366984
824.433	0.358267
826.844	0.350681
829.254	0.34443
831.665	0.338904
834.076	0.334101
836.486	0.330324
838.897	0.326758
841.307	0.324409
843.718	0.323274
846.129	0.323345
848.539	0.326103
850.95	0.332073
853.361	0.344195
855.771	0.365937
858.182	0.398681
860.592	0.437895
863.003	0.467912
865.414	0.473322
867.824	0.454685
870.235	0.426807
872.646	0.404879
875.056	0.393124
877.467	0.388165
879.877	0.386847
882.288	0.385992
884.699	0.38362
887.109	0.379251
889.52	0.372062
891.931	0.363587
894.341	0.355524
896.752	0.348918
899.162	0.345095
901.573	0.343955
903.984	0.345575
906.394	0.350646
908.805	0.358869
911.216	0.370827
913.626	0.386199
916.037	0.40331
918.447	0.419844
920.858	0.431311
923.269	0.434342
925.679	0.429071
928.09	0.419069
930.501	0.410562
932.911	0.408916
935.322	0.418305
937.732	0.444228
940.143	0.493176
942.554	0.573752
944.964	0.690992
947.375	0.831817
949.786	0.958931
952.196	1.03271
954.607	1.04967
957.017	1.01072
959.428	0.905241
961.839	0.767504
964.249	0.652588
966.66	0.583339
969.07	0.547951
971.481	0.524264
973.892	0.501651
976.302	0.482265
978.713	0.468732
981.124	0.460385
983.534	0.454899
985.945	0.450916
988.355	0.449547
990.766	0.452317
993.177	0.461455
995.587	0.479666
997.998	0.506251
1000.41	0.535912
1002.82	0.558877
1005.23	0.564755
1007.64	0.552292
1010.05	0.529424
1012.46	0.506184
1014.87	0.488519
1017.28	0.477213
1019.69	0.471504
1022.1	0.470472
1024.51	0.472406
1026.93	0.476851
1029.34	0.483809
1031.75	0.493703
1034.16	0.508396
1036.57	0.5292
1038.98	0.557279
1041.39	0.592553
1043.8	0.632265
1046.21	0.671991
1048.62	0.706201
1051.03	0.73131
1053.44	0.746074
1055.85	0.748658
1058.26	0.741543
1060.67	0.730611
1063.08	0.722271
1065.5	0.720964
1067.91	0.727703
1070.32	0.744334
1072.73	0.774331
1075.14	0.819748
1077.55	0.876928
1079.96	0.932588
1082.37	0.970279
1084.78	0.976541
1087.19	0.943364
1089.6	0.876383
1092.01	0.791363
1094.42	0.707841
1096.83	0.639808
1099.24	0.591263
1101.65	0.558681
1104.07	0.537278
1106.48	0.52291
1108.89	0.513126
1111.3	0.507781
1113.71	0.506378
1116.12	0.509247
1118.53	0.517004
1120.94	0.529379
1123.35	0.546977
1125.76	0.569566
1128.17	0.595311
1130.58	0.620719
1132.99	0.638845
1135.4	0.644715
1137.81	0.640048
1140.22	0.631828
1142.64	0.627373
1145.05	0.629589
1147.46	0.638391
1149.87	0.653039
1152.28	0.671228
1154.69	0.691305
1157.1	0.711457
1159.51	0.729789
1161.92	0.745565
1164.33	0.756852
1166.74	0.763195
1169.15	0.765241
1171.56	0.76273
1173.97	0.75634
1176.38	0.746341
1178.79	0.732937
1181.21	0.716961
1183.62	0.69939
1186.03	0.68156
1188.44	0.664565
1190.85	0.649047
1193.26	0.636061
1195.67	0.625957
1198.08	0.617826
1200.49	0.61053
1202.9	0.601904
1205.31	0.590854
1207.72	0.578492
1210.13	0.565442
1212.54	0.553
1214.95	0.542349
1217.36	0.533456
1219.78	0.526605
1222.19	0.521458
1224.6	0.517629
1227.01	0.515926
1229.42	0.515866
1231.83	0.516616
1234.24	0.516367
1236.65	0.512353
1239.06	0.505019
1241.47	0.496344
1243.88	0.488149
1246.29	0.482125
1248.7	0.47772
1251.11	0.474441
1253.52	0.472584
1255.93	0.471769
1258.35	0.472616
1260.76	0.475562
1263.17	0.47995
1265.58	0.484782
1267.99	0.487385
1270.4	0.487067
1272.81	0.486323
1275.22	0.486608
1277.63	0.487489
1280.04	0.485646
1282.45	0.478328
1284.86	0.46796
1287.27	0.457616
1289.68	0.449477
1292.09	0.444602
1294.5	0.441814
1296.92	0.440732
1299.33	0.440908
1301.74	0.441523
1304.15	0.443062
1306.56	0.44483
1308.97	0.446701
1311.38	0.449195
1313.79	0.451792
1316.2	0.45475
1318.61	0.458418
1321.02	0.462904
1323.43	0.468274
1325.84	0.474149
1328.25	0.480569
1330.66	0.488149
1333.07	0.495651
1335.49	0.502894
1337.9	0.510115
1340.31	0.517475
1342.72	0.524409
1345.13	0.529839
1347.54	0.533289
1349.95	0.535019
1352.36	0.534405
1354.77	0.532943
1357.18	0.532216
1359.59	0.531986
1362	0.534965
1364.41	0.542676
1366.82	0.551115
1369.23	0.562936
1371.64	0.574119
1374.06	0.586156
1376.47	0.599864
1378.88	0.611187
1381.29	0.623535
1383.7	0.637368
1386.11	0.652958
1388.52	0.677046
1390.93	0.701592
1393.34	0.729259
1395.75	0.769421
1398.16	0.812747
1400.57	0.871715
1402.98	0.932378
1405.39	1.0145
1407.8	1.10771
1410.21	1.20883
1412.63	1.32081
1415.04	1.42742
1417.45	1.52046
1419.86	1.62971
1422.27	1.70497
1424.68	1.77812
1427.09	1.83651
1429.5	1.87803
1431.91	1.91026
1434.32	1.90796
1436.73	1.8902
1439.14	1.86421
1441.55	1.81513
1443.96	1.76012
1446.37	1.69761
1448.78	1.62854
1451.2	1.56777
1453.61	1.50203
1456.02	1.43735
1458.43	1.38016
1460.84	1.34522
1463.25	1.321
1465.66	1.32107
1468.07	1.34413
1470.48	1.3785
1472.89	1.42941
1475.3	1.46722
1477.71	1.46708
1480.12	1.42418
1482.53	1.37019
1484.94	1.3245
1487.35	1.28315
1489.77	1.21707
1492.18	1.09542
1494.59	0.962059
1497	0.812525
1499.41	0.707362
1501.82	0.642286
1504.23	0.595735
1506.64	0.553507
1509.05	0.537158
1511.46	0.524277
1513.87	0.51175
1516.28	0.500119
1518.69	0.492339
1521.1	0.486403
1523.51	0.487588
1525.92	0.488537
1528.34	0.492596
1530.75	0.494573
1533.16	0.497076
1535.57	0.506619
1537.98	0.505267
1540.39	0.515545
1542.8	0.537372
1545.21	0.558115
1547.62	0.578128
1550.03	0.601831
1552.44	0.626763
1554.85	0.656814
1557.26	0.676747
1559.67	0.742187
1562.08	0.793097
1564.49	0.836999
1566.91	0.892297
1569.32	0.955984
1571.73	1.03899
1574.14	1.10528
1576.55	1.21498
1578.96	1.33229
1581.37	1.4502
1583.78	1.58657
1586.19	1.74674
1588.6	1.91563
1591.01	2.09584
1593.42	2.31316
1595.83	2.50224
1598.24	2.71946
1600.65	2.94859
1603.06	3.03221
1605.48	3.3304
1607.89	3.35152
1610.3	3.33504
1612.71	3.67293
1615.12	3.33173
1617.53	3.42952
1619.94	3.55039
1622.35	3.26726
1624.76	3.45987
1627.17	3.24208
1629.58	3.13847
1631.99	3.1356
1634.4	2.83383
1636.81	2.72329
1639.22	2.63352
1641.63	2.51517
1644.04	2.50898
1646.46	2.49923
1648.87	2.59764
1651.28	2.71368
1653.69	2.76388
1656.1	3.09582
1658.51	3.22841
1660.92	3.13779
1663.33	3.43892
1665.74	3.24385
1668.15	3.15115
1670.56	3.37274
1672.97	3.11016
1675.38	3.27948
1677.79	3.30307
1680.2	3.08233
1682.61	3.23493
1685.03	2.94934
1687.44	3.01964
1689.85	3.03862
1692.26	2.6878
1694.67	2.45067
1697.08	2.0566
1699.49	1.72085
1701.9	1.39987
1704.31	1.19264
1706.72	0.990577
1709.13	0.853673
1711.54	0.745704
1713.95	0.664012
1716.36	0.59422
1718.77	0.542296
1721.18	0.511575
1723.6	0.481292
1726.01	0.456465
1728.42	0.432683
1730.83	0.409189
1733.24	0.386623
1735.65	0.366433
1738.06	0.350809
1740.47	0.33257
1742.88	0.317631
1745.29	0.303918
1747.7	0.289675
1750.11	0.278743
1752.52	0.271827
1754.93	0.263619
1757.34	0.256101
1759.75	0.249452
1762.17	0.242427
1764.58	0.238732
1766.99	0.232841
1769.4	0.225792
1771.81	0.218349
1774.22	0.216601
1776.63	0.214505
1779.04	0.210109
1781.45	0.205728
1783.86	0.202796
1786.27	0.199204
1788.68	0.194933
1791.09	0.189225
1793.5	0.186125
1795.91	0.184722
1798.32	0.181079
1800.74	0.178017
1803.15	0.176661
1805.56	0.174007
1807.97	0.170999
1810.38	0.168069
1812.79	0.166394
1815.2	0.164671
1817.61	0.162733
1820.02	0.160467
1822.43	0.158245
1824.84	0.155421
1827.25	0.153176
1829.66	0.150461
1832.07	0.151012
1834.48	0.150144
1836.89	0.148572
1839.31	0.147253
1841.72	0.145072
1844.13	0.142345
1846.54	0.1429
1848.95	0.142699
1851.36	0.141653
1853.77	0.140738
1856.18	0.139802
1858.59	0.138867
1861	0.138292
1863.41	0.137193
1865.82	0.135116
1868.23	0.133274
1870.64	0.134341
1873.05	0.134758
1875.46	0.134317
1877.88	0.13378
1880.29	0.133551
1882.7	0.133026
1885.11	0.132717
1887.52	0.132144
1889.93	0.131691
1892.34	0.132336
1894.75	0.132149
1897.16	0.132341
1899.57	0.132596
1901.98	0.132474
1904.39	0.132389
1906.8	0.132357
1909.21	0.132131
1911.62	0.132786
1914.03	0.13314
1916.45	0.132543
1918.86	0.133261
1921.27	0.133859
1923.68	0.134556
1926.09	0.135674
1928.5	0.136167
1930.91	0.136862
1933.32	0.137552
1935.73	0.138141
1938.14	0.138887
1940.55	0.138956
1942.96	0.139469
1945.37	0.140711
1947.78	0.141558
1950.19	0.142493
1952.6	0.14319
1955.02	0.143752
1957.43	0.144592
1959.84	0.145167
1962.25	0.145406
1964.66	0.145475
1967.07	0.145203
1969.48	0.145358
1971.89	0.1451
1974.3	0.144589
1976.71	0.144227
1979.12	0.143659
1981.53	0.143135
1983.94	0.142665
1986.35	0.141929
1988.76	0.141357
1991.17	0.140711
1993.59	0.140525
1996	0.140428
1998.41	0.140117
2000.82	0.139967
2003.23	0.139967
2005.64	0.139859
2008.05	0.140017
2010.46	0.140175
2012.87	0.140293
2015.28	0.140558
2017.69	0.140884
2020.1	0.141329
2022.51	0.141794
2024.92	0.142115
2027.33	0.142595
2029.74	0.143056
2032.16	0.143331
2034.57	0.143715
2036.98	0.143832
2039.39	0.143808
2041.8	0.143779
2044.21	0.143529
2046.62	0.143332
2049.03	0.142976
2051.44	0.142529
2053.85	0.142248
2056.26	0.141826
2058.67	0.14145
2061.08	0.141196
2063.49	0.140823
2065.9	0.140719
2068.31	0.140527
2070.73	0.140324
2073.14	0.140317
2075.55	0.140233
2077.96	0.14027
2080.37	0.140384
2082.78	0.140428
2085.19	0.14062
2087.6	0.140772
2090.01	0.140916
2092.42	0.141208
2094.83	0.141356
2097.24	0.141555
2099.65	0.141844
2102.06	0.142026
2104.47	0.142391
2106.88	0.142793
2109.3	0.143275
2111.71	0.144054
2114.12	0.144854
2116.53	0.145857
2118.94	0.147072
2121.35	0.148341
2123.76	0.149945
2126.17	0.151627
2128.58	0.153401
2130.99	0.155468
2133.4	0.157616
2135.81	0.16022
2138.22	0.163479
2140.63	0.16757
2143.04	0.172998
2145.45	0.179481
2147.87	0.186235
2150.28	0.192049
2152.69	0.195202
2155.1	0.195098
2157.51	0.192054
2159.92	0.186927
2162.33	0.181111
2164.74	0.175504
2167.15	0.170835
2169.56	0.167689
2171.97	0.165835
2174.38	0.164692
2176.79	0.16374
2179.2	0.16299
2181.61	0.16268
2184.02	0.162638
2186.44	0.162761
2188.85	0.163006
2191.26	0.163085
2193.67	0.163105
2196.08	0.163062
2198.49	0.162757
2200.9	0.162453
2203.31	0.161967
2205.72	0.161318
2208.13	0.160662
2210.54	0.159783
2212.95	0.158898
2215.36	0.158032
2217.77	0.157039
2220.18	0.156177
2222.59	0.155317
2225.01	0.15446
2227.42	0.153798
2229.83	0.153112
2232.24	0.152559
2234.65	0.152149
2237.06	0.151696
2239.47	0.15142
2241.88	0.151144
2244.29	0.150852
2246.7	0.150721
2249.11	0.150529
2251.52	0.150365
2253.93	0.150253
2256.34	0.150066
2258.75	0.149998
2261.16	0.149884
2263.58	0.149753
2265.99	0.149765
2268.4	0.149702
2270.81	0.14976
2273.22	0.14992
2275.63	0.150006
2278.04	0.150193
2280.45	0.150307
2282.86	0.150239
2285.27	0.150134
2287.68	0.149904
2290.09	0.149737
2292.5	0.149656
2294.91	0.149587
2297.32	0.149746
2299.73	0.149916
2302.15	0.150045
2304.56	0.150292
2306.97	0.150426
2309.38	0.150587
2311.79	0.150784
2314.2	0.150751
2316.61	0.150661
2319.02	0.150495
2321.43	0.150371
2323.84	0.150403
2326.25	0.149898
2328.66	0.149562
2331.07	0.149564
2333.48	0.149226
2335.89	0.149042
2338.3	0.148815
2340.72	0.148634
2343.13	0.149257
2345.54	0.150785
2347.95	0.15117
2350.36	0.14971
2352.77	0.148528
2355.18	0.148088
2357.59	0.14793
2360	0.148251
2362.41	0.149135
2364.82	0.150105
2367.23	0.151435
2369.64	0.152779
2372.05	0.153717
2374.46	0.154607
2376.87	0.15509
2379.29	0.155269
2381.7	0.155227
2384.11	0.154925
2386.52	0.154739
2388.93	0.154694
2391.34	0.154715
2393.75	0.154908
2396.16	0.155124
2398.57	0.155333
2400.98	0.155605
2403.39	0.155776
2405.8	0.155973
2408.21	0.156201
2410.62	0.15632
2413.03	0.156467
2415.44	0.156582
2417.86	0.156652
2420.27	0.156771
2422.68	0.156816
2425.09	0.156932
2427.5	0.15707
2429.91	0.157109
2432.32	0.157223
2434.73	0.157247
2437.14	0.157225
2439.55	0.157243
2441.96	0.157133
2444.37	0.157028
2446.78	0.156946
2449.19	0.156836
2451.6	0.156838
2454.01	0.156898
2456.42	0.157069
2458.84	0.157418
2461.25	0.157834
2463.66	0.158381
2466.07	0.159054
2468.48	0.159729
2470.89	0.160578
2473.3	0.161442
2475.71	0.162343
2478.12	0.163343
2480.53	0.164244
2482.94	0.165098
2485.35	0.165809
2487.76	0.166245
2490.17	0.166519
2492.58	0.166516
2494.99	0.166352
2497.41	0.166184
2499.82	0.16588
2502.23	0.165689
2504.64	0.165656
2507.05	0.165672
2509.46	0.165849
2511.87	0.166047
2514.28	0.166285
2516.69	0.16657
2519.1	0.166755
2521.51	0.167017
2523.92	0.167324
2526.33	0.167619
2528.74	0.168115
2531.15	0.168701
2533.56	0.169486
2535.98	0.170558
2538.39	0.171752
2540.8	0.173158
2543.21	0.174715
2545.62	0.176331
2548.03	0.178015
2550.44	0.179522
2552.85	0.180823
2555.26	0.182029
2557.67	0.183072
2560.08	0.18411
2562.49	0.185197
2564.9	0.186359
2567.31	0.187759
2569.72	0.189304
2572.13	0.191041
2574.55	0.192944
2576.96	0.19488
2579.37	0.196944
2581.78	0.198996
2584.19	0.200928
2586.6	0.202849
2589.01	0.204622
2591.42	0.206266
2593.83	0.207855
2596.24	0.209248
2598.65	0.210535
2601.06	0.211741
2603.47	0.212834
2605.88	0.213841
2608.29	0.214672
2610.7	0.215387
2613.12	0.216011
2615.53	0.216432
2617.94	0.216841
2620.35	0.217244
2622.76	0.217628
2625.17	0.218178
2627.58	0.218873
2629.99	0.219816
2632.4	0.221019
2634.81	0.222453
2637.22	0.22418
2639.63	0.226088
2642.04	0.228078
2644.45	0.230159
2646.86	0.232158
2649.27	0.234022
2651.69	0.235755
2654.1	0.237235
2656.51	0.23853
2658.92	0.239635
2661.33	0.240553
2663.74	0.241451
2666.15	0.242241
2668.56	0.24299
2670.97	0.243722
2673.38	0.244342
2675.79	0.244948
2678.2	0.245518
2680.61	0.245965
2683.02	0.246407
2685.43	0.246729
2687.84	0.246998
2690.26	0.247298
2692.67	0.247415
2695.08	0.247576
2697.49	0.247735
2699.9	0.247844
2702.31	0.247965
2704.72	0.248049
2707.13	0.248108
2709.54	0.248201
2711.95	0.248324
2714.36	0.248588
2716.77	0.248949
2719.18	0.249433
2721.59	0.250188
2724	0.251063
2726.41	0.252144
2728.83	0.253531
2731.24	0.254999
2733.65	0.25664
2736.06	0.258498
2738.47	0.260505
2740.88	0.262677
2743.29	0.264868
2745.7	0.267155
2748.11	0.269554
2750.52	0.271901
2752.93	0.274229
2755.34	0.276407
2757.75	0.278415
2760.16	0.280433
2762.57	0.282342
2764.98	0.284303
2767.4	0.286428
2769.81	0.288618
2772.22	0.291014
2774.63	0.293636
2777.04	0.296491
2779.45	0.299534
2781.86	0.302691
2784.27	0.306076
2786.68	0.309643
2789.09	0.31318
2791.5	0.316952
2793.91	0.32085
2796.32	0.324705
2798.73	0.328793
2801.14	0.332919
2803.55	0.3371
2805.97	0.341459
2808.38	0.345796
2810.79	0.350219
2813.2	0.35463
2815.61	0.358965
2818.02	0.363216
2820.43	0.367225
2822.84	0.370915
2825.25	0.374215
2827.66	0.377017
2830.07	0.37941
2832.48	0.381434
2834.89	0.383233
2837.3	0.385076
2839.71	0.386935
2842.12	0.388981
2844.54	0.391198
2846.95	0.393394
2849.36	0.39566
2851.77	0.397623
2854.18	0.399095
2856.59	0.400347
2859	0.401389
2861.41	0.402522
2863.82	0.403754
2866.23	0.404922
2868.64	0.406208
2871.05	0.407373
2873.46	0.408362
2875.87	0.409312
2878.28	0.409936
2880.69	0.410309
2883.11	0.410397
2885.52	0.409993
2887.93	0.409392
2890.34	0.40873
2892.75	0.408216
2895.16	0.408015
2897.57	0.408171
2899.98	0.408865
2902.39	0.410072
2904.8	0.4117
2907.21	0.413918
2909.62	0.416451
2912.03	0.419165
2914.44	0.422131
2916.85	0.425022
2919.26	0.427776
2921.68	0.430197
2924.09	0.432109
2926.5	0.433671
2928.91	0.434873
2931.32	0.435969
2933.73	0.437273
2936.14	0.438826
2938.55	0.440835
2940.96	0.443675
2943.37	0.447301
2945.78	0.452021
2948.19	0.457828
2950.6	0.464551
2953.01	0.471954
2955.42	0.479419
2957.83	0.486513
2960.25	0.492397
2962.66	0.496362
2965.07	0.497812
2967.48	0.496163
2969.89	0.491773
2972.3	0.485718
2974.71	0.479007
2977.12	0.472862
2979.53	0.467976
2981.94	0.464347
2984.35	0.462144
2986.76	0.460976
2989.17	0.460656
2991.58	0.461198
2993.99	0.462734
2996.4	0.46554
2998.82	0.469921
3001.23	0.476346
3003.64	0.485544
3006.05	0.498096
3008.46	0.514073
3010.87	0.533512
3013.28	0.555165
3015.69	0.57715
3018.1	0.597454
3020.51	0.613947
3022.92	0.626094
3025.33	0.63377
3027.74	0.63769
3030.15	0.638853
3032.56	0.638167
3034.97	0.636313
3037.39	0.634053
3039.8	0.631972
3042.21	0.63092
3044.62	0.631002
3047.03	0.632239
3049.44	0.634698
3051.85	0.637262
3054.26	0.639989
3056.67	0.643445
3059.08	0.647727
3061.49	0.6531
3063.9	0.659662
3066.31	0.667858
3068.72	0.677328
3071.13	0.68755
3073.54	0.698962
3075.96	0.711323
3078.37	0.724602
3080.78	0.739096
3083.19	0.754343
3085.6	0.770326
3088.01	0.787305
3090.42	0.804629
3092.83	0.822763
3095.24	0.841759
3097.65	0.86102
3100.06	0.880817
3102.47	0.901176
3104.88	0.922155
3107.29	0.943937
3109.7	0.965744
3112.11	0.988375
3114.53	1.01168
3116.94	1.03573
3119.35	1.06146
3121.76	1.08811
3124.17	1.11573
3126.58	1.1452
3128.99	1.17555
3131.4	1.20794
3133.81	1.2429
3136.22	1.2785
3138.63	1.31728
3141.04	1.35771
3143.45	1.40025
3145.86	1.44561
3148.27	1.49224
3150.68	1.54295
3153.1	1.59511
3155.51	1.64888
3157.92	1.7069
3160.33	1.76477
3162.74	1.82523
3165.15	1.88884
3167.56	1.94911
3169.97	2.01309
3172.38	2.07636
3174.79	2.13433
3177.2	2.19438
3179.61	2.24647
3182.02	2.29623
3184.43	2.34311
3186.84	2.3762
3189.25	2.40784
3191.67	2.43504
3194.08	2.44113
3196.49	2.44789
3198.9	2.44412
3201.31	2.43913
3203.72	2.42583
3206.13	2.3997
3208.54	2.38234
3210.95	2.36409
3213.36	2.33534
3215.77	2.31851
3218.18	2.30004
3220.59	2.28278
3223	2.27739
3225.41	2.26985
3227.82	2.26599
3230.23	2.26465
3232.65	2.26526
3235.06	2.28315
3237.47	2.29779
3239.88	2.31041
3242.29	2.33118
3244.7	2.34452
3247.11	2.37046
3249.52	2.3924
3251.93	2.40912
3254.34	2.44058
3256.75	2.46158
3259.16	2.47914
3261.57	2.50307
3263.98	2.50855
3266.39	2.52279
3268.8	2.53864
3271.22	2.53326
3273.63	2.55192
3276.04	2.56019
3278.45	2.57766
3280.86	2.60473
3283.27	2.60513
3285.68	2.62195
3288.09	2.64323
3290.5	2.65591
3292.91	2.69473
3295.32	2.7131
3297.73	2.7356
3300.14	2.78897
3302.55	2.79274
3304.96	2.83017
3307.37	2.86658
3309.79	2.86619
3312.2	2.92932
3314.61	2.95974
3317.02	2.95877
3319.43	3.00754
3321.84	2.99505
3324.25	3.01888
3326.66	3.0209
3329.07	2.9814
3331.48	3.01064
3333.89	3.01081
3336.3	2.99862
3338.71	3.02584
3341.12	2.98295
3343.53	2.9744
3345.94	2.96791
3348.36	2.93043
3350.77	2.94536
3353.18	2.91609
3355.59	2.87917
3358	2.88332
3360.41	2.85104
3362.82	2.85921
3365.23	2.84937
3367.64	2.80866
3370.05	2.8035
3372.46	2.78103
3374.87	2.77062
3377.28	2.77003
3379.69	2.72598
3382.1	2.73013
3384.51	2.72956
3386.93	2.68631
3389.34	2.68477
3391.75	2.67215
3394.16	2.64832
3396.57	2.65392
3398.98	2.62559
3401.39	2.62303
3403.8	2.61621
3406.21	2.58512
3408.62	2.5897
3411.03	2.5689
3413.44	2.54656
3415.85	2.53454
3418.26	2.50124
3420.67	2.48988
3423.08	2.4695
3425.5	2.4317
3427.91	2.42931
3430.32	2.39993
3432.73	2.36424
3435.14	2.35905
3437.55	2.3191
3439.96	2.28931
3442.37	2.26232
3444.78	2.21889
3447.19	2.19602
3449.6	2.15628
3452.01	2.11536
3454.42	2.08104
3456.83	2.03644
3459.24	1.99774
3461.65	1.95308
3464.07	1.90304
3466.48	1.86178
3468.89	1.80823
3471.3	1.74602
3473.71	1.68977
3476.12	1.62829
3478.53	1.57069
3480.94	1.508
3483.35	1.43931
3485.76	1.37438
3488.17	1.30587
3490.58	1.23586
3492.99	1.16709
3495.4	1.09675
3497.81	1.02831
3500.22	0.962173
3502.64	0.897517
3505.05	0.837233
3507.46	0.781645
3509.87	0.729825
3512.28	0.683837
3514.69	0.641746
3517.1	0.6044
3519.51	0.571268
3521.92	0.541891
3524.33	0.516519
3526.74	0.493081
3529.15	0.472844
3531.56	0.455428
3533.97	0.439054
3536.38	0.42472
3538.79	0.411327
3541.21	0.398452
3543.62	0.387099
3546.03	0.377523
3548.44	0.367562
3550.85	0.357892
3553.26	0.350113
3555.67	0.342232
3558.08	0.33446
3560.49	0.326999
3562.9	0.318739
3565.31	0.310888
3567.72	0.307142
3570.13	0.302288
3572.54	0.29577
3574.95	0.289917
3577.36	0.284815
3579.78	0.279827
3582.19	0.274456
3584.6	0.267824
3587.01	0.263511
3589.42	0.261235
3591.83	0.255609
3594.24	0.25112
3596.65	0.247555
3599.06	0.242946
3601.47	0.240304
3603.88	0.236626
3606.29	0.231345
3608.7	0.229014
3611.11	0.225134
3613.52	0.221786
3615.93	0.217846
3618.35	0.214479
3620.76	0.214754
3623.17	0.212299
3625.58	0.206511
3627.99	0.202261
3630.4	0.204764
3632.81	0.202055
3635.22	0.200675
3637.63	0.198234
3640.04	0.196368
3642.45	0.19401
3644.86	0.188353
3647.27	0.182133
3649.68	0.183134
3652.09	0.186251
3654.5	0.183309
3656.92	0.183839
3659.33	0.183267
3661.74	0.181997
3664.15	0.180563
3666.56	0.176334
3668.97	0.172401
3671.38	0.173414
3673.79	0.167455
3676.2	0.17137
3678.61	0.173282
3681.02	0.174224
3683.43	0.17324
3685.84	0.169359
3688.25	0.16649
3690.66	0.169251
3693.07	0.171906
3695.49	0.171595
3697.9	0.170676
3700.31	0.16892
3702.72	0.170579
3705.13	0.170269
3707.54	0.16663
3709.95	0.163691
3712.36	0.168347
3714.77	0.170441
3717.18	0.169038
3719.59	0.167765
3722	0.167221
3724.41	0.168206
3726.82	0.169883
3729.23	0.167074
3731.64	0.163035
3734.06	0.162867
3736.47	0.167236
3738.88	0.167735
3741.29	0.164216
3743.7	0.163437
3746.11	0.165697
3748.52	0.161003
3750.93	0.163882
3753.34	0.168892
3755.75	0.167699
3758.16	0.167758
3760.57	0.170373
3762.98	0.169637
3765.39	0.169573
3767.8	0.168699
3770.21	0.170549
3772.63	0.172318
3775.04	0.171767
3777.45	0.169694
3779.86	0.17127
3782.27	0.171742
3784.68	0.172145
3787.09	0.17324
3789.5	0.173563
3791.91	0.173274
3794.32	0.171075
3796.73	0.170812
3799.14	0.167686
3801.55	0.169623
3803.96	0.171174
3806.37	0.171338
3808.78	0.17567
3811.2	0.175019
3813.61	0.171359
3816.02	0.172412
3818.43	0.169988
3820.84	0.171224
3823.25	0.17598
3825.66	0.175011
3828.07	0.176086
3830.48	0.174944
3832.89	0.17462
3835.3	0.172388
3837.71	0.172862
3840.12	0.175341
3842.53	0.177363
3844.94	0.179855
3847.35	0.178881
3849.77	0.173316
3852.18	0.169586
3854.59	0.180199
3857	0.180966
3859.41	0.17991
3861.82	0.178098
3864.23	0.178932
3866.64	0.178919
3869.05	0.178114
3871.46	0.180969
3873.87	0.181603
3876.28	0.182738
3878.69	0.180444
3881.1	0.182643
3883.51	0.180991
3885.92	0.184206
3888.34	0.182879
3890.75	0.182445
3893.16	0.185597
3895.57	0.184147
3897.98	0.181983
3900.39	0.182542
3902.8	0.183109
3905.21	0.186204
3907.62	0.186964
3910.03	0.186948
3912.44	0.186568
3914.85	0.185307
3917.26	0.186439
3919.67	0.186878
3922.08	0.185972
3924.49	0.186598
3926.91	0.186632
3929.32	0.185504
3931.73	0.186836
3934.14	0.187703
3936.55	0.187325
3938.96	0.1869
3941.37	0.186818
3943.78	0.187903
3946.19	0.187348
3948.6	0.187946
3951.01	0.188148
3953.42	0.188057
3955.83	0.188583
3958.24	0.188855
3960.65	0.189042
3963.06	0.189524
3965.48	0.189526
3967.89	0.189853
3970.3	0.190048
3972.71	0.190211
3975.12	0.190871
3977.53	0.190913
3979.94	0.190758
3982.35	0.190929
3984.76	0.190855
3987.17	0.190795
3989.58	0.190938
3991.99	0.190765
3994.4	0.190665
3996.81	0.190645
3999.22	0.190429
4000.19	0.190381